{
  "id": "DENEXPassAMA",
  "resourceType": "Bundle",
  "type": "collection",
  "entry": [
    {
      "fullUrl": "DENEXPassAMA",
      "resource": {
        "id": "DENEXPassAMA",
        "meta": {
          "profile": [
            "http://hl7.org/fhir/us/qicore/StructureDefinition/qicore-patient"
          ]
        },
        "resourceType": "Patient",
        "text": {
          "status": "generated",
          "div": "<div xmlns=\"http://www.w3.org/1999/xhtml\"><div class=\"hapiHeaderText\">AMA <b>DENEXPASS </b></div><table class=\"hapiPropertyTable\"><tbody><tr><td>Identifier</td><td>b38296647323cdc7f628f752ac1b84d0</td></tr><tr><td>Date of birth</td><td><span>31 July 1969</span></td></tr></tbody></table></div>"
        },
        "extension": [
          {
            "extension": [
              {
                "url": "ombCategory",
                "valueCoding": {
                  "system": "urn:oid:2.16.840.1.113883.6.238",
                  "code": "1002-5",
                  "display": "American Indian or Alaska Native",
                  "userSelected": true
                }
              },
              {
                "url": "text",
                "valueString": "American Indian or Alaska Native"
              }
            ],
            "url": "http://hl7.org/fhir/us/core/StructureDefinition/us-core-race"
          },
          {
            "extension": [
              {
                "url": "ombCategory",
                "valueCoding": {
                  "system": "urn:oid:2.16.840.1.113883.6.238",
                  "code": "2135-2",
                  "display": "Hispanic or Latino",
                  "userSelected": true
                }
              },
              {
                "url": "text",
                "valueString": "Hispanic or Latino"
              }
            ],
            "url": "http://hl7.org/fhir/us/core/StructureDefinition/us-core-ethnicity"
          }
        ],
        "identifier": [
          {
            "type": {
              "coding": [
                {
                  "system": "http://terminology.hl7.org/CodeSystem/v2-0203",
                  "code": "MR"
                }
              ]
            },
            "system": "https://bonnie-fhir.healthit.gov/",
            "value": "DENEXPassAMA"
          }
        ],
        "active": true,
        "name": [
          {
            "use": "usual",
            "family": "DENEXPass",
            "given": [
              "AMA"
            ]
          }
        ],
        "gender": "male",
        "birthDate": "1969-07-31"
      }
    },
    {
      "fullUrl": "5c953f97b848462de0ae40d7",
      "resource": {
        "id": "5c953f97b848462de0ae40d7",
        "resourceType": "Encounter",
        "meta": {
          "profile": [
            "http://hl7.org/fhir/us/qicore/StructureDefinition/qicore-encounter"
          ]
        },        "status": "finished",
        "class": {
          "system": "http://terminology.hl7.org/CodeSystem/v3-ActCode",
          "code": "IMP",
          "display": "inpatient encounter",
          "userSelected": true
        },
        "type": [
          {
            "coding": [
              {
                "system": "http://snomed.info/sct",
                "code": "32485007"
              }
            ]
          }
        ],
        "subject": {
          "reference": "Patient/DENEXPassAMA"
        },
        "period": {
          "start": "2022-11-20T08:00:00.000Z",
          "end": "2022-11-24T08:15:00.000Z"
        },
        "length": {
          "value": 4.0,
          "unit": "days"
        },
        "diagnosis": [
          {
            "condition": {
              "reference": "Condition/ischemic-stroke-6dfa"
            },
            "use": {
              "coding": [
                {
                  "system": "http://snomed.info/sct",
                  "code": "111297002",
                  "display": "Nonparalytic stroke (disorder)",
                  "userSelected": true
                }
              ]
            },
            "rank": 1
          }
        ],
        "hospitalization": {
          "dischargeDisposition": {
            "coding": [
              {
                "system": "http://snomed.info/sct",
                "code": "445060000",
                "display": "Left Against Medical Advice"
              }
            ]
          }
        }
      }
    },
    {
      "fullUrl": "5f2c53c71c76ba5c996056cc",
      "resource": {
        "id": "5f2c53c71c76ba5c996056cc",
        "resourceType": "Coverage",
        "meta": {
          "profile": [
            "http://hl7.org/fhir/us/qicore/StructureDefinition/qicore-coverage"
          ]
        },
        "status": "active",
    	  "payor": [{
          "reference": "Patient/DENEXPassAMA"
        }],
        "beneficiary": {
          "reference": "Patient/DENEXPassAMA"
        },
        "period": {
          "start": "1969-07-31T08:00:00.000Z"
        }
      }
    },
    {
      "fullUrl": "5c953f97b848462de0ae40d9",
      "resource": {
        "id": "5c953f97b848462de0ae40d9",
        "resourceType": "Procedure",
        "meta": {
          "profile": [
            "http://hl7.org/fhir/us/qicore/StructureDefinition/qicore-procedure"
          ]
        },
        "status": "completed",
        "code": {
          "coding": [
            {
              "system": "http://www.cms.gov/Medicare/Coding/ICD10",
              "code": "02560ZZ"
            },
            {
              "system": "http://snomed.info/sct",
              "code": "175095005"
            }
          ]
        },
        "subject": {
          "reference": "Patient/DENEXPassAMA"
        },
        "performedPeriod": {
          "start": "2022-11-19T08:00:00.000Z",
          "end": "2022-11-20T08:15:00.000Z"
        }
      }
    },
    {
      "fullUrl": "ischemic-stroke-6dfa",
      "resource": {
        "id": "ischemic-stroke-6dfa",
        "resourceType": "Condition",
        "meta": {
          "profile": [
            "http://hl7.org/fhir/us/qicore/StructureDefinition/qicore-condition"
          ]
        },
        "code": {
          "coding": [
            {
              "system": "http://snomed.info/sct",
              "version": "2021-09",
              "code": "111297002",
              "display": "Nonparalytic stroke (disorder)",
              "userSelected": true
            }
          ]
        },
    	"subject": {
			  "reference": "Patient/DENEXPassAMA"
    	},
    	"recordedDate": "2022-10-04T08:00:00.000+00:00"
      }
    }
  ]
}