{"resourceType":"Bundle","id":"tests-CMS177-IPPass-bundle","type":"transaction","entry":[{"resource":{"resourceType":"Bundle","id":"641d8c441383e512b24c4fa6","type":"collection","entry":[{"fullUrl":"641d8c441383e512b24c4fa6","resource":{"resourceType":"Patient","id":"CMS177_IPPass","meta":{"profile":["http://hl7.org/fhir/us/qicore/StructureDefinition/qicore-patient"]},"text":{"status":"generated","div":"<div xmlns=\"http://www.w3.org/1999/xhtml\"><div class=\"hapiHeaderText\">DxNotMDD <b>IPPFAIL </b></div><table class=\"hapiPropertyTable\"><tbody><tr><td>Identifier</td><td>d1453b77778379cfd153e4f4edcb19436f4cb6e451c10cba529cfda045fb2716</td></tr><tr><td>Date of birth</td><td><span>20 November 2005</span></td></tr></tbody></table></div>"},"extension":[{"url":"http://hl7.org/fhir/us/core/StructureDefinition/us-core-race","extension":[{"url":"ombCategory","valueCoding":{"system":"urn:oid:2.16.840.1.113883.6.238","code":"2028-9","display":"Asian","userSelected":true}},{"url":"text","valueString":"Asian"}]},{"url":"http://hl7.org/fhir/us/core/StructureDefinition/us-core-ethnicity","extension":[{"url":"ombCategory","valueCoding":{"system":"urn:oid:2.16.840.1.113883.6.238","code":"2135-2","display":"Hispanic or Latino","userSelected":true}},{"url":"text","valueString":"Hispanic or Latino"}]}],"identifier":[{"type":{"coding":[{"system":"http://terminology.hl7.org/CodeSystem/v2-0203","code":"MR"}]},"system":"https://bonnie-fhir.healthit.gov/","value":"641d8c441383e512b24c4fa6"}],"active":true,"name":[{"use":"usual","family":"1IPPass","given":["EncwithMDDduringMP"]}],"gender":"male","birthDate":"2016-11-20"}},{"fullUrl":"5c98fd1ab848464ed33e9eaf","resource":{"resourceType":"Encounter","id":"5c98fd1ab848464ed33e9eaf","meta":{"profile":["http://hl7.org/fhir/us/qicore/StructureDefinition/qicore-encounter"]},"status":"finished","class":{"system":"http://terminology.hl7.org/CodeSystem/v3-ActCode","code":"AMB","display":"ambulatory","userSelected":true},"type":[{"coding":[{"system":"http://www.ama-assn.org/go/cpt","code":"90853"}]}],"subject":{"reference":"Patient/CMS177_IPPass"},"period":{"start":"2023-05-09T08:30:00.000+00:00","end":"2023-05-09T09:00:00.000+00:00"},"diagnosis":[{"condition":{"reference":"Condition/major-depressive-disorder-active-4fa7"},"use":{"coding":[{"system":"http://snomed.info/sct","version":"2022-09","code":"281000119103","display":"Severe recurrent major depression (disorder)","userSelected":true}]}}]}},{"fullUrl":"major-depressive-disorder-active-4fa7","resource":{"resourceType":"Condition","id":"major-depressive-disorder-active-4fa7","meta":{"profile":["http://hl7.org/fhir/us/qicore/StructureDefinition/qicore-condition"]},"clinicalStatus":{"coding":[{"system":"http://terminology.hl7.org/CodeSystem/condition-clinical","code":"active","display":"Active","userSelected":true}]},"verificationStatus":{"coding":[{"system":"http://terminology.hl7.org/CodeSystem/condition-ver-status","code":"confirmed","display":"Confirmed","userSelected":true}]},"category":[{"coding":[{"system":"http://terminology.hl7.org/CodeSystem/condition-category","code":"encounter-diagnosis","display":"Encounter Diagnosis","userSelected":true}]}],"code":{"coding":[{"system":"http://snomed.info/sct","version":"2022-09","code":"10811121000119102","display":"Major depressive disorder in mother complicating childbirth (disorder)","userSelected":true}]},"subject":{"reference":"Patient/CMS177_IPPass"},"onsetDateTime":"2023-05-09T08:33:00.000+00:00"}},{"fullUrl":"http://coverage/1","resource":{"resourceType":"Coverage","id":"1","meta":{"profile":["http://hl7.org/fhir/us/qicore/StructureDefinition/qicore-coverage"]},"status":"active","beneficiary":{"reference":"Patient/CMS177_IPPass"},"payor":[{"reference":"Organization/123456"}]}},{"fullUrl":"http://Organization/123456","resource":{"resourceType":"Organization","id":"123456","meta":{"profile":["http://hl7.org/fhir/us/qicore/StructureDefinition/qicore-organization"]},"identifier":[{"use":"temp","system":"urn:oid:2.16.840.1.113883.4.4","value":"21-3259825"}],"active":true,"type":[{"coding":[{"system":"http://terminology.hl7.org/CodeSystem/organization-type","code":"pay","display":"Payer"}]}],"name":"Blue Cross Blue Shield of Texas","telecom":[{"system":"phone","value":"(+1) 972-766-6900"}],"address":[{"use":"billing","type":"postal","line":["P.O. Box 660044"],"city":"Dallas","state":"TX","postalCode":"75266-0044","country":"USA"}]}},{"fullUrl":"http://Practitioner/123456","resource":{"resourceType":"Practitioner","id":"practitioner-123456","identifier":[{"system":"http://hl7.org/fhir/sid/us-npi","value":"123456"}],"name":[{"family":"Evil","prefix":["Dr"]}]}}]},"request":{"method":"PUT","url":"Bundle/641d8c441383e512b24c4fa6"}}]}