{
	"id": "NUMERPassAnticoagOccurAtDCTestOccuranceMADiE",
	"resourceType": "Bundle",
	"type": "collection",
	"entry": [
		{
			"fullUrl": "NUMERPassAnticoagOccurAtDCTestOccuranceMADiE",
			"resource": {
				"id": "NUMERPassAnticoagOccurAtDCTestOccuranceMADiE",
				"meta": {
					"profile": [
						"http://hl7.org/fhir/us/qicore/StructureDefinition/qicore-patient"
					]
				},
				"resourceType": "Patient",
				"text": {
					"status": "generated",
					"div": "<div xmlns=\"http://www.w3.org/1999/xhtml\"><div class=\"hapiHeaderText\">Anticoag@DC_TestOccurance <b>NUMERPASS </b></div><table class=\"hapiPropertyTable\"><tbody><tr><td>Identifier</td><td>b33e5c40a8266630a8099906ba9c4a7fec43a1f608aad75439f44c686ae32b2a</td></tr><tr><td>Date of birth</td><td><span>23 May 1954</span></td></tr></tbody></table></div>"
				},
				"extension": [
					{
						"extension": [
							{
								"url": "ombCategory",
								"valueCoding": {
									"system": "urn:oid:2.16.840.1.113883.6.238",
									"code": "1002-5",
									"display": "American Indian or Alaska Native",
									"userSelected": true
								}
							},
							{
								"url": "text",
								"valueString": "American Indian or Alaska Native"
							}
						],
						"url": "http://hl7.org/fhir/us/core/StructureDefinition/us-core-race"
					},
					{
						"extension": [
							{
								"url": "ombCategory",
								"valueCoding": {
									"system": "urn:oid:2.16.840.1.113883.6.238",
									"code": "2135-2",
									"display": "Hispanic or Latino",
									"userSelected": true
								}
							},
							{
								"url": "text",
								"valueString": "Hispanic or Latino"
							}
						],
						"url": "http://hl7.org/fhir/us/core/StructureDefinition/us-core-ethnicity"
					}
				],
				"identifier": [
					{
						"type": {
							"coding": [
								{
									"system": "http://terminology.hl7.org/CodeSystem/v2-0203",
									"code": "MR"
								}
							]
						},
						"system": "https://bonnie-fhir.healthit.gov/",
						"value": "NUMERPassAnticoagOccurAtDCTestOccuranceMADiE"
					}
				],
				"active": true,
				"name": [
					{
						"use": "usual",
						"family": "NUMERPass",
						"given": [
							"Anticoag@DC_TestOccurance"
						]
					}
				],
				"gender": "female",
				"birthDate": "1954-05-23"
			}
		},
		{
			"fullUrl": "5c953f97b848462de0ae4173",
			"resource": {
				"id": "5c953f97b848462de0ae4173",
				"resourceType": "Encounter",
				"meta": {
					"profile": [
						"http://hl7.org/fhir/us/qicore/StructureDefinition/qicore-encounter"
					]
				},
				"class": {
					"system": "http://terminology.hl7.org/CodeSystem/v3-ActCode",
					"code": "IMP",
					"display": "inpatient encounter"
				},
				"status": "finished",
				"type": [
					{
						"coding": [
							{
								"system": "http://snomed.info/sct",
								"code": "183452005"
							}
						]
					}
				],
				"subject": {
					"reference": "Patient/NUMERPassAnticoagOccurAtDCTestOccuranceMADiE"
				},
				"period": {
					"start": "2022-11-18T08:00:00.000Z",
					"end": "2022-11-19T08:15:00.000Z"
				},
				"length": {
					"value": 1.0,
					"unit": "days"
				}
			}
		},
		{
			"fullUrl": "5c953f97b848462de0ae4174",
			"resource": {
				"id": "5c953f97b848462de0ae4174",
				"resourceType": "Encounter",
				"meta": {
					"profile": [
						"http://hl7.org/fhir/us/qicore/StructureDefinition/qicore-encounter"
					]
				},
				"class": {
					"system": "http://terminology.hl7.org/CodeSystem/v3-ActCode",
					"code": "IMP",
					"display": "inpatient encounter"
				},
				"status": "finished",
				"type": [
					{
						"coding": [
							{
								"system": "http://snomed.info/sct",
								"code": "32485007"
							}
						]
					}
				],
				"subject": {
					"reference": "Patient/NUMERPassAnticoagOccurAtDCTestOccuranceMADiE"
				},
				"period": {
					"start": "2022-11-20T08:00:00.000Z",
					"end": "2022-11-24T08:15:00.000Z"
				},
				"length": {
					"value": 4.0,
					"unit": "days"
				},
				"diagnosis": [
					{
						"condition": {
							"reference": "Condition/ischemic-stroke-19a1"
						},
						"rank": 1
					}
				]
			}
		},
		{
			"fullUrl": "5c953f97b848462de0ae4176",
			"resource": {
				"id": "5c953f97b848462de0ae4176",
				"resourceType": "MedicationRequest",
				"meta": {
					"profile": [
						"http://hl7.org/fhir/us/qicore/StructureDefinition/qicore-medicationrequest"
					]
				},
				"requester": {
					"reference": "Practitioner/example"
				},
				"status": "active",
				"intent": "order",
				"category": [
					{
						"coding": [
							{
								"system": "http://terminology.hl7.org/CodeSystem/medicationrequest-category",
								"code": "discharge",
								"display": "Discharge",
								"userSelected": true
							}
						]
					}
				],
				"medicationCodeableConcept": {
					"coding": [
						{
							"system": "http://www.nlm.nih.gov/research/umls/rxnorm",
							"code": "308351"
						}
					]
				},
				"subject": {
					"reference": "Patient/NUMERPassAnticoagOccurAtDCTestOccuranceMADiE"
				},
				"authoredOn": "2022-11-24T08:00:00.000+00:00"
			}
		},
		{
			"fullUrl": "5f2c53d01c76ba5c9960579e",
			"resource": {
				"id": "5f2c53d01c76ba5c9960579e",
				"resourceType": "Coverage",
				"beneficiary": {
					"reference": "Patient/NUMERPassAnticoagOccurAtDCTestOccuranceMADiE"
				},
				"period": {
					"start": "1954-05-23T08:00:00.000Z"
				},
				"status": "active",
				"payor": [
					{
						"reference": "Organization/123456"
					}
				]
			}
		},
		{
			"fullUrl": "5c953f97b848462de0ae4177",
			"resource": {
				"id": "5c953f97b848462de0ae4177",
				"resourceType": "Procedure",
				"meta": {
					"profile": [
						"http://hl7.org/fhir/us/qicore/StructureDefinition/qicore-procedure"
					]
				},
				"extension": [
					{
						"url": "http://hl7.org/fhir/us/qicore/StructureDefinition/qicore-recorded",
						"valueDateTime": "2022-11-19T09:35:00-04:00"
					}
				],
				"status": "completed",
				"code": {
					"coding": [
						{
							"system": "http://www.cms.gov/Medicare/Coding/ICD10",
							"code": "02560ZZ"
						},
						{
							"system": "http://snomed.info/sct",
							"code": "175095005"
						}
					]
				},
				"subject": {
					"reference": "Patient/NUMERPassAnticoagOccurAtDCTestOccuranceMADiE"
				},
				"performedPeriod": {
					"start": "2022-11-20T06:00:00.000Z",
					"end": "2022-11-20T07:15:00.000Z"
				}
			}
		},
		{
			"fullUrl": "ischemic-stroke-19a1",
			"resource": {
				"id": "ischemic-stroke-19a1",
				"resourceType": "Condition",
				"meta": {
					"profile": [
						"http://hl7.org/fhir/us/qicore/StructureDefinition/qicore-condition"
					]
				},
				"category": [
					{
						"coding": [
							{
								"system": "http://terminology.hl7.org/CodeSystem/condition-category",
								"code": "encounter-diagnosis",
								"display": "Encounter Diagnosis"
							}
						]
					}
				],
				"clinicalStatus": {
					"coding": [
						{
							"system": "http://terminology.hl7.org/CodeSystem/condition-clinical",
							"code": "active"
						}
					]
				},
				"verificationStatus": {
					"coding": [
						{
							"system": "http://terminology.hl7.org/CodeSystem/condition-ver-status",
							"code": "confirmed"
						}
					]
				},
				"code": {
					"coding": [
						{
							"system": "http://snomed.info/sct",
							"version": "2021-09",
							"code": "111297002",
							"display": "Nonparalytic stroke (disorder)",
							"userSelected": true
						}
					]
				},
				"recordedDate": "2022-10-13T08:00:00.000+00:00",
				"subject": {
					"reference": "Patient/NUMERPassAnticoagOccurAtDCTestOccuranceMADiE"
				}
			}
		},
		{
			"fullUrl": "http://Organization/123456",
			"resource": {
				"resourceType": "Organization",
				"active": true,
				"address": [
					{
						"use": "billing",
						"type": "postal",
						"line": [
							"P.O. Box 660044"
						],
						"city": "Dallas",
						"state": "TX",
						"postalCode": "75266-0044",
						"country": "USA"
					}
				],
				"id": "123456",
				"identifier": [
					{
						"use": "temp",
						"system": "urn:oid:2.16.840.1.113883.4.4",
						"value": "21-3259825"
					}
				],
				"meta": {
					"profile": [
						"http://hl7.org/fhir/us/qicore/StructureDefinition/qicore-organization"
					]
				},
				"name": "Blue Cross Blue Shield of Texas",
				"telecom": [
					{
						"system": "phone",
						"value": "(+1) 972-766-6900"
					}
				],
				"type": [
					{
						"coding": [
							{
								"system": "http://terminology.hl7.org/CodeSystem/organization-type",
								"code": "pay",
								"display": "Payer"
							}
						]
					}
				]
			}
		},
		{
			"fullUrl": "http://Practitioner/123456",
			"resource": {
				"resourceType": "Practitioner",
				"id": "practitioner-123456",
				"name": [
					{
						"family": "Evil",
						"prefix": [
							"Dr"
						]
					}
				],
				"identifier": [
					{
						"system": "http://hl7.org/fhir/sid/us-npi",
						"value": "123456"
					}
				]
			}
		}
	]
}