{
    "id": "6419de119c0269a68225bb45",
	"resourceType": "Bundle",
	"type": "collection",
	"entry": [
		{
			"fullUrl": "6419de119c0269a68225bb45",
			"resource": {
				"id": "CMS996DenExcln-fail",
				"meta": {
					"profile": [
						"http://hl7.org/fhir/us/qicore/StructureDefinition/qicore-patient"
					]
				},
				"resourceType": "Patient",
				"extension": [
					{
						"extension": [
							{
								"url": "ombCategory",
								"valueCoding": {
									"system": "urn:oid:2.16.840.1.113883.6.238",
									"code": "2076-8",
									"display": "Native Hawaiian or Other Pacific Islander",
									"userSelected": true
								}
							},
							{
								"url": "text",
								"valueString": "Native Hawaiian or Other Pacific Islander"
							}
						],
						"url": "http://hl7.org/fhir/us/core/StructureDefinition/us-core-race"
					},
					{
						"extension": [
							{
								"url": "ombCategory",
								"valueCoding": {
									"system": "urn:oid:2.16.840.1.113883.6.238",
									"code": "2186-5",
									"display": "Not Hispanic or Latino",
									"userSelected": true
								}
							},
							{
								"url": "text",
								"valueString": "Not Hispanic or Latino"
							}
						],
						"url": "http://hl7.org/fhir/us/core/StructureDefinition/us-core-ethnicity"
					}
				],
				"identifier": [
					{
						"type": {
							"coding": [
								{
									"system": "http://terminology.hl7.org/CodeSystem/v2-0203",
									"code": "MR"
								}
							]
						},
						"system": "https://bonnie-fhir.healthit.gov/",
						"value": "6419de119c0269a68225bb45"
					}
				],
				"name": [
					{
						"family": "6DenExclFail",
						"given": [
							"DxStartsDuringEDNoEnd"
						]
					}
				],
				"gender": "female",
				"birthDate": "1984-12-02"
			}
		},
		{
			"fullUrl": "emergency-department-visit-330a",
			"resource": {
				"id": "emergency-department-visit-330a",
				"resourceType": "Encounter",
				"meta": {
          "profile": [
            "http://hl7.org/fhir/us/qicore/StructureDefinition/qicore-encounter"]
            	},
				"status": "finished",
				"class": {
					"system": "http://terminology.hl7.org/CodeSystem/v3-ActCode",
					"code": "EMER",
					"display": "emergency",
					"userSelected": true
				},
				"type": [
					{
						"coding": [
							{
								"system": "http://snomed.info/sct",
								"version": "2020-09",
								"code": "4525004",
								"display": "Emergency department patient visit (procedure)",
								"userSelected": true
							}
						]
					}
				],
				"period": {
					"start": "2023-10-09T08:05:00.000Z",
					"end": "2023-10-10T07:15:00.000Z"
				},
				"reasonCode": [
					{
						"coding": [
							{
								"system": "http://snomed.info/sct",
								"version": "2020-09",
								"code": "703253007",
								"display": "Acute ST segment elevation myocardial infarction of inferior wall involving right ventricle (disorder)",
								"userSelected": true
							}
						]
					}
				],
				"subject": {
					"reference": "Patient/CMS996DenExcln-fail"
				}
			}
		},
		{
			"fullUrl": "stemi-330b",
			"resource": {
				"id": "stemi-330b",
				"resourceType": "Condition",
				"meta": {
          "profile": [
            "http://hl7.org/fhir/us/qicore/StructureDefinition/qicore-condition"]},
				"clinicalStatus": {
					"coding": [
						{
							"system": "http://terminology.hl7.org/CodeSystem/condition-clinical",
							"code": "active",
							"display": "active",
							"userSelected": true
						}
					]
				},
				"verificationStatus": {
					"coding": [
						{
							"system": "http://terminology.hl7.org/CodeSystem/condition-ver-status",
							"code": "confirmed",
							"display": "Confirmed",
							"userSelected": true
						}
					]
				},
				"category": [
					{
						"coding": [
							{
								"system": "http://terminology.hl7.org/CodeSystem/condition-category",
								"code": "encounter-diagnosis",
								"display": "Encounter Diagnosis",
								"userSelected": true
							}
						]
					}
				],
				"code": {
					"coding": [
						{
							"system": "http://snomed.info/sct",
							"version": "2020-09",
							"code": "401303003",
							"display": "Acute ST segment elevation myocardial infarction (disorder)",
							"userSelected": true
						}
					]
				},
				"onsetDateTime": "2023-10-09T08:30:00.000Z",
				"subject": {
					"reference": "Patient/CMS996DenExcln-fail"
				}
			}
		},
		{
			"fullUrl": "allergy-to-thrombolytics-7576",
			"resource": {
				"id": "allergy-to-thrombolytics-7576",
				"resourceType": "Condition",
				"meta": {
          "profile": [
            "http://hl7.org/fhir/us/qicore/StructureDefinition/qicore-condition"]},
				"clinicalStatus": {
					"coding": [
						{
							"system": "http://terminology.hl7.org/CodeSystem/condition-clinical",
							"code": "active",
							"display": "Active",
							"userSelected": true
						}
					]
				},
				"verificationStatus": {
					"coding": [
						{
							"system": "http://terminology.hl7.org/CodeSystem/condition-ver-status",
							"code": "confirmed",
							"display": "Confirmed",
							"userSelected": true
						}
					]
				},
				"category": [
					{
						"coding": [
							{
								"system": "http://terminology.hl7.org/CodeSystem/condition-category",
								"code": "encounter-diagnosis",
								"display": "Encounter Diagnosis",
								"userSelected": true
							}
						]
					}
				],
				"code": {
					"coding": [
						{
							"system": "http://snomed.info/sct",
							"version": "2020-09",
							"code": "295108008",
							"display": "Allergy to streptokinase (finding)",
							"userSelected": true
						}
					]
				},
				"onsetDateTime": "2023-10-09T10:00:00.000Z",
				"subject": {
					"reference": "Patient/CMS996DenExcln-fail"
				}
			}
		},
		{
			"fullUrl": "http://coverage/1",
			"resource": {
				"resourceType": "Coverage",
				"beneficiary": {
					"reference": "Patient/CMS996DenExcln-fail"
				},
				"id": "1",
				"meta": {
					"profile": [
						"http://hl7.org/fhir/us/qicore/StructureDefinition/qicore-coverage"
					]
				},
				"payor": [
					{
						"reference": "Organization/123456"
					}
				],
				"status": "active"
			}
		},
		{
			"fullUrl": "http://Organization/123456",
			"resource": {
				"resourceType": "Organization",
				"active": true,
				"address": [
					{
						"use": "billing",
						"type": "postal",
						"line": [
							"P.O. Box 660044"
						],
						"city": "Dallas",
						"state": "TX",
						"postalCode": "75266-0044",
						"country": "USA"
					}
				],
				"id": "123456",
				"identifier": [
					{
						"use": "temp",
						"system": "urn:oid:2.16.840.1.113883.4.4",
						"value": "21-3259825"
					}
				],
				"meta": {
					"profile": [
						"http://hl7.org/fhir/us/qicore/StructureDefinition/qicore-organization"
					]
				},
				"name": "Blue Cross Blue Shield of Texas",
				"telecom": [
					{
						"system": "phone",
						"value": "(+1) 972-766-6900"
					}
				],
				"type": [
					{
						"coding": [
							{
								"system": "http://terminology.hl7.org/CodeSystem/organization-type",
								"code": "pay",
								"display": "Payer"
							}
						]
					}
				]
			}
		},
		{
			"fullUrl": "http://Practitioner/123456",
			"resource": {
				"resourceType": "Practitioner",
				"id": "practitioner-123456",
				"name": [
					{
						"family": "Evil",
						"prefix": [
							"Dr"
						]
					}
				],
				"identifier": [
					{
						"system": "http://hl7.org/fhir/sid/us-npi",
						"value": "123456"
					}
				]
			}
        }
    ]
}