{
	"id": "IPPassEncPrinDxEQHemStrokeMADiE",
	"resourceType": "Bundle",
	"type": "collection",
	"entry": [
		{
			"fullUrl": "IPPassEncPrinDxEQHemStrokeMADiE",
			"resource": {
				"id": "IPPassEncPrinDxEQHemStrokeMADiE",
				"meta": {
					"profile": [
						"http://hl7.org/fhir/us/qicore/StructureDefinition/qicore-patient"
					]
				},
				"resourceType": "Patient",
				"text": {
					"status": "generated",
					"div": "<div xmlns=\"http://www.w3.org/1999/xhtml\"><div class=\"hapiHeaderText\">EncPrinDx=HemStroke <b>DENOMFAIL </b></div><table class=\"hapiPropertyTable\"><tbody><tr><td>Identifier</td><td>0b269bc848a6268e8b93e0dc7d9a011e</td></tr><tr><td>Date of birth</td><td><span>01 December 1960</span></td></tr></tbody></table></div>"
				},
				"extension": [
					{
						"extension": [
							{
								"url": "ombCategory",
								"valueCoding": {
									"system": "urn:oid:2.16.840.1.113883.6.238",
									"code": "1002-5",
									"display": "American Indian or Alaska Native",
									"userSelected": true
								}
							},
							{
								"url": "text",
								"valueString": "American Indian or Alaska Native"
							}
						],
						"url": "http://hl7.org/fhir/us/core/StructureDefinition/us-core-race"
					},
					{
						"extension": [
							{
								"url": "ombCategory",
								"valueCoding": {
									"system": "urn:oid:2.16.840.1.113883.6.238",
									"code": "2135-2",
									"display": "Hispanic or Latino",
									"userSelected": true
								}
							},
							{
								"url": "text",
								"valueString": "Hispanic or Latino"
							}
						],
						"url": "http://hl7.org/fhir/us/core/StructureDefinition/us-core-ethnicity"
					}
				],
				"identifier": [
					{
						"type": {
							"coding": [
								{
									"system": "http://terminology.hl7.org/CodeSystem/v2-0203",
									"code": "MR"
								}
							]
						},
						"system": "https://bonnie-fhir.healthit.gov/",
						"value": "IPPassEncPrinDxEQHemStrokeMADiE"
					}
				],
				"active": true,
				"name": [
					{
						"use": "usual",
						"family": "DENOMFail",
						"given": [
							"EncPrinDx=HemStroke"
						]
					}
				],
				"gender": "male",
				"birthDate": "1960-12-01"
			}
		},
		{
			"fullUrl": "5c953f96b848462de0ae4094",
			"resource": {
				"id": "5c953f96b848462de0ae4094",
				"resourceType": "Encounter",
				"meta": {
					"profile": [
						"http://hl7.org/fhir/us/qicore/StructureDefinition/qicore-encounter"
					]
				},
				"class": {
					"system": "http://terminology.hl7.org/CodeSystem/v3-ActCode",
					"code": "IMP",
					"display": "inpatient encounter"
				},
				"status": "finished",
				"type": [
					{
						"coding": [
							{
								"system": "http://snomed.info/sct",
								"code": "32485007"
							}
						]
					}
				],
				"subject": {
					"reference": "Patient/IPPassEncPrinDxEQHemStrokeMADiE"
				},
				"period": {
					"start": "2022-02-08T08:00:00.000Z",
					"end": "2022-02-10T08:15:00.000Z"
				},
				"length": {
					"value": 2.0,
					"unit": "days"
				},
				"diagnosis": [
					{
						"condition": {
							"reference": "Condition/hemorrhagic-stroke-1978"
						},
						"rank": 1,
						"use": {
							"coding": [
								{
									"system": "http://snomed.info/sct",
									"code": "120041000119109",
									"display": "Atrial Fibrillation/Flutter"
								}
							]
						}
					}
				]
			}
		},
		{
			"fullUrl": "5f2c53ca1c76ba5c99605708",
			"resource": {
				"id": "5f2c53ca1c76ba5c99605708",
				"resourceType": "Coverage",
				"beneficiary": {
					"reference": "Patient/IPPassEncPrinDxEQHemStrokeMADiE"
				},
				"period": {
					"start": "1960-12-01T08:00:00.000Z"
				},
				"status": "active",
				"payor": [
					{
						"reference": "Organization/123456"
					}
				]
			}
		},
		{
			"fullUrl": "hemorrhagic-stroke-1978",
			"resource": {
				"id": "hemorrhagic-stroke-1978",
				"resourceType": "Condition",
				"meta": {
					"profile": [
						"http://hl7.org/fhir/us/qicore/StructureDefinition/qicore-condition"
					]
				},
				"category": [
					{
						"coding": [
							{
								"system": "http://terminology.hl7.org/CodeSystem/condition-category",
								"code": "encounter-diagnosis",
								"display": "Encounter Diagnosis"
							}
						]
					}
				],
				"clinicalStatus": {
					"coding": [
						{
							"system": "http://terminology.hl7.org/CodeSystem/condition-clinical",
							"code": "active"
						}
					]
				},
				"verificationStatus": {
					"coding": [
						{
							"system": "http://terminology.hl7.org/CodeSystem/condition-ver-status",
							"code": "confirmed"
						}
					]
				},
				"code": {
					"coding": [
						{
							"system": "http://snomed.info/sct",
							"version": "2021-09",
							"code": "195155004",
							"display": "Subarachnoid hemorrhage from carotid siphon and bifurcation (disorder)",
							"userSelected": true
						}
					]
				},
				"recordedDate": "2022-10-13T08:00:00.000+00:00",
				"subject": {
					"reference": "Patient/IPPassEncPrinDxEQHemStrokeMADiE"
				}
			}
		},
		{
			"fullUrl": "http://Organization/123456",
			"resource": {
				"resourceType": "Organization",
				"active": true,
				"address": [
					{
						"use": "billing",
						"type": "postal",
						"line": [
							"P.O. Box 660044"
						],
						"city": "Dallas",
						"state": "TX",
						"postalCode": "75266-0044",
						"country": "USA"
					}
				],
				"id": "123456",
				"identifier": [
					{
						"use": "temp",
						"system": "urn:oid:2.16.840.1.113883.4.4",
						"value": "21-3259825"
					}
				],
				"meta": {
					"profile": [
						"http://hl7.org/fhir/us/qicore/StructureDefinition/qicore-organization"
					]
				},
				"name": "Blue Cross Blue Shield of Texas",
				"telecom": [
					{
						"system": "phone",
						"value": "(+1) 972-766-6900"
					}
				],
				"type": [
					{
						"coding": [
							{
								"system": "http://terminology.hl7.org/CodeSystem/organization-type",
								"code": "pay",
								"display": "Payer"
							}
						]
					}
				]
			}
		},
		{
			"fullUrl": "http://Practitioner/123456",
			"resource": {
				"resourceType": "Practitioner",
				"id": "practitioner-123456",
				"name": [
					{
						"family": "Evil",
						"prefix": [
							"Dr"
						]
					}
				],
				"identifier": [
					{
						"system": "http://hl7.org/fhir/sid/us-npi",
						"value": "123456"
					}
				]
			}
		}
	]
}