{
    "id": "6419dd509c0269a68225bb43",
	"resourceType": "Bundle",
	"type": "collection",
	"entry": [
		{
			"fullUrl": "6419dd509c0269a68225bb43",
			"resource": {
				"id": "CMS996Num-pass",
				"meta": {
					"profile": [
						"http://hl7.org/fhir/us/qicore/StructureDefinition/qicore-patient"
					]
				},
				"resourceType": "Patient",
				"extension": [
					{
						"extension": [
							{
								"url": "ombCategory",
								"valueCoding": {
									"system": "urn:oid:2.16.840.1.113883.6.238",
									"code": "2054-5",
									"display": "Black or African American",
									"userSelected": true
								}
							},
							{
								"url": "text",
								"valueString": "Black or African American"
							}
						],
						"url": "http://hl7.org/fhir/us/core/StructureDefinition/us-core-race"
					},
					{
						"extension": [
							{
								"url": "ombCategory",
								"valueCoding": {
									"system": "urn:oid:2.16.840.1.113883.6.238",
									"code": "2186-5",
									"display": "Not Hispanic or Latino",
									"userSelected": true
								}
							},
							{
								"url": "text",
								"valueString": "Not Hispanic or Latino"
							}
						],
						"url": "http://hl7.org/fhir/us/core/StructureDefinition/us-core-ethnicity"
					}
				],
				"identifier": [
					{
						"type": {
							"coding": [
								{
									"system": "http://terminology.hl7.org/CodeSystem/v2-0203",
									"code": "MR"
								}
							]
						},
						"system": "https://bonnie-fhir.healthit.gov/",
						"value": "6419dd509c0269a68225bb43"
					}
				],
				"name": [
					{
						"family": "3NumPass",
						"given": [
							"Fibrinolytic30minofEDstartrelevantdateTime"
						]
					}
				],
				"gender": "female",
				"birthDate": "1984-12-02"
			}
		},
    {
      "fullUrl": "emergency-department-visit-e632",
      "resource": {
            "resourceType": "Encounter",
            "id": "emergency-department-visit-e632",
            "meta": {
            					"profile": [
            						"http://hl7.org/fhir/us/qicore/StructureDefinition/qicore-encounter"]
            				},
            				"subject": {
					"reference": "Patient/CMS996Num-pass"
				},
        "status": "finished",
        "class": {
          "system": "http://terminology.hl7.org/CodeSystem/v3-ActCode",
          "code": "EMER",
          "display": "emergency",
          "userSelected": true
        },
        "type": [
          {
            "coding": [
              {
                "system": "http://snomed.info/sct",
                "version": "2020-09",
                "code": "4525004",
                "display": "Emergency department patient visit (procedure)",
                "userSelected": true
              }
            ]
          }
        ],
        "period": {
          "start": "2023-10-09T08:05:00.000Z",
          "end": "2023-10-10T07:15:00.000Z"
        },
        "diagnosis": [
          {
            "condition": {
              "reference": "Condition/stemi-e633"
            }
          }
        ]
      }
    },
		{
			"fullUrl": "fibrinolytic-therapy-4e22",
			"resource": {
				"id": "fibrinolytic-therapy-4e22",
				"resourceType": "MedicationAdministration",
				"meta": {
					"profile": [
						"http://hl7.org/fhir/us/qicore/StructureDefinition/qicore-medicationadministration"
					]
				},
				"status": "completed",
				"medicationReference": {
					"reference": "Medication/fibrinolytic-therapy-4e22"
				},
				"context": {
					"reference": "Encounter/emergency-department-visit-e632"
				},
				"supportingInformation": [
					{
						"reference": "Condition/stemi-8727"
					}
				],
				"medicationCodeableConcept": {
					"coding": [
						{
							"system": "http://www.nlm.nih.gov/research/umls/rxnorm",
							"version": "2021-01",
							"code": "1804804",
							"display": "alteplase 50 MG Injection",
							"userSelected": true
						}
					]
				},
				"effectiveDateTime": "2023-10-09T08:10:00.000Z",
				"subject": {
					"reference": "Patient/CMS996Num-pass"
				}
			}
		},
		{
			"fullUrl": "stemi-8727",
			"resource": {
				"resourceType": "Condition",				
				"id": "stemi-8727",
				"meta": {
					"profile": [
						"http://hl7.org/fhir/us/qicore/StructureDefinition/qicore-condition"
					]
				},
				"clinicalStatus": {
					"coding": [
						{
							"system": "http://terminology.hl7.org/CodeSystem/condition-clinical",
							"code": "active",
							"display": "Active",
							"userSelected": true
						}
					]
				},
				"verificationStatus": {
					"coding": [
						{
							"system": "http://terminology.hl7.org/CodeSystem/condition-ver-status",
							"code": "confirmed",
							"display": "Confirmed",
							"userSelected": true
						}
					]
				},
				"category": [
					{
						"coding": [
							{
								"system": "http://terminology.hl7.org/CodeSystem/condition-category",
								"code": "encounter-diagnosis",
								"display": "Encounter Diagnosis",
								"userSelected": true
							}
						]
					}
				],
				"code": {
					"coding": [
						{
							"system": "http://hl7.org/fhir/sid/icd-10-cm",
							"code": "I21.09",
							"userSelected": true
						}
					]
				},
				"onsetPeriod": {
					"start": "2023-10-09T08:10:00.000Z"
				},
				"subject": {
					"reference": "Patient/CMS996Num-pass"
				}
			}
		},
		{
			"fullUrl": "http://coverage/1",
			"resource": {
				"resourceType": "Coverage",
				"beneficiary": {
					"reference": "Patient/CMS996Num-pass"
				},
				"id": "1",
				"meta": {
					"profile": [
						"http://hl7.org/fhir/us/qicore/StructureDefinition/qicore-coverage"
					]
				},
				"payor": [
					{
						"reference": "Organization/123456"
					}
				],
				"status": "active"
			}
		},
		{
			"fullUrl": "http://Organization/123456",
			"resource": {
				"resourceType": "Organization",
				"active": true,
				"address": [
					{
						"use": "billing",
						"type": "postal",
						"line": [
							"P.O. Box 660044"
						],
						"city": "Dallas",
						"state": "TX",
						"postalCode": "75266-0044",
						"country": "USA"
					}
				],
				"id": "123456",
				"identifier": [
					{
						"use": "temp",
						"system": "urn:oid:2.16.840.1.113883.4.4",
						"value": "21-3259825"
					}
				],
				"meta": {
					"profile": [
						"http://hl7.org/fhir/us/qicore/StructureDefinition/qicore-organization"
					]
				},
				"name": "Blue Cross Blue Shield of Texas",
				"telecom": [
					{
						"system": "phone",
						"value": "(+1) 972-766-6900"
					}
				],
				"type": [
					{
						"coding": [
							{
								"system": "http://terminology.hl7.org/CodeSystem/organization-type",
								"code": "pay",
								"display": "Payer"
							}
						]
					}
				]
			}
		},
		{
			"fullUrl": "http://Practitioner/123456",
			"resource": {
				"resourceType": "Practitioner",
				"id": "practitioner-123456",
				"name": [
					{
						"family": "Evil",
						"prefix": [
							"Dr"
						]
					}
				],
				"identifier": [
					{
						"system": "http://hl7.org/fhir/sid/us-npi",
						"value": "123456"
					}
				]
			}
		}
	]
}