{
	"id": "632325cf414ba67d4e1d1c24",
	"resourceType": "Bundle",
	"type": "collection",
	"entry": [
		{
			"fullUrl": "632325cf414ba67d4e1d1c24",
			"resource": {
				"id": "CMS506-DENEXFail1",
				"meta": {
					"profile": [
						"http://hl7.org/fhir/us/qicore/StructureDefinition/qicore-patient"
					]
				},
				"resourceType": "Patient",
				"extension": [
					{
						"extension": [
							{
								"url": "ombCategory",
								"valueCoding": {
									"system": "urn:oid:2.16.840.1.113883.6.238",
									"code": "1002-5",
									"display": "American Indian or Alaska Native",
									"userSelected": true
								}
							},
							{
								"url": "text",
								"valueString": "American Indian or Alaska Native"
							}
						],
						"url": "http://hl7.org/fhir/us/core/StructureDefinition/us-core-race"
					},
					{
						"extension": [
							{
								"url": "ombCategory",
								"valueCoding": {
									"system": "urn:oid:2.16.840.1.113883.6.238",
									"code": "2186-5",
									"display": "Not Hispanic or Latino",
									"userSelected": true
								}
							},
							{
								"url": "text",
								"valueString": "Not Hispanic or Latino"
							}
						],
						"url": "http://hl7.org/fhir/us/core/StructureDefinition/us-core-ethnicity"
					}
				],
				"identifier": [
					{
						"type": {
							"coding": [
								{
									"system": "http://terminology.hl7.org/CodeSystem/v2-0203",
									"code": "MR"
								}
							]
						},
						"system": "https://bonnie-fhir.healthit.gov/",
						"value": "632325cf414ba67d4e1d1c24"
					}
				],
				"name": [
					{
						"family": "DENOMFail",
						"given": [
							"EncounterNoOpioid"
						]
					}
				],
				"gender": "female",
				"birthDate": "2004-01-01"
			}
		},
		{
			"fullUrl": "encounter-inpatient-1c25",
			"resource": {
				"id": "encounter-inpatient-1c25",
				"resourceType": "Encounter",
				 "meta": {
		"profile": ["http://hl7.org/fhir/us/qicore/StructureDefinition/qicore-encounter"
		]
		},
		"class": {
          "system": "http://terminology.hl7.org/CodeSystem/v3-ActCode",
          "code": "AMB",
          "display": "ambulatory"
        },
				"status": "finished",
				"type": [
					{
						"coding": [
							{
								"system": "http://snomed.info/sct",
								"version": "2022-03",
								"code": "183452005",
								"display": "Emergency hospital admission (procedure)",
								"userSelected": true
							}
						]
					}
				],
				"period": {
					"start": "2023-01-01T08:00:00.000+00:00",
					"end": "2023-01-06T11:30:00.000+00:00"
				},
				"subject": {
					"reference": "Patient/CMS506-DENEXFail1"
				}
			}
		},
		{
			"fullUrl": "http://coverage/1",
			"resource": {
				"resourceType": "Coverage",
				"beneficiary": {
					"reference": "Patient/CMS506-DENEXFail1"
				},
				"id": "1",
				"meta": {
					"profile": [
						"http://hl7.org/fhir/us/qicore/StructureDefinition/qicore-coverage"
					]
				},
				"payor": [
					{
						"reference": "Organization/123456"
					}
				],
				"status": "active"
			}
		},
		{
			"fullUrl": "http://Organization/123456",
			"resource": {
				"resourceType": "Organization",
				"active": true,
				"address": [
					{
						"use": "billing",
						"type": "postal",
						"line": [
							"P.O. Box 660044"
						],
						"city": "Dallas",
						"state": "TX",
						"postalCode": "75266-0044",
						"country": "USA"
					}
				],
				"id": "123456",
				"identifier": [
					{
						"use": "temp",
						"system": "urn:oid:2.16.840.1.113883.4.4",
						"value": "21-3259825"
					}
				],
				"meta": {
					"profile": [
						"http://hl7.org/fhir/us/qicore/StructureDefinition/qicore-organization"
					]
				},
				"name": "Blue Cross Blue Shield of Texas",
				"telecom": [
					{
						"system": "phone",
						"value": "(+1) 972-766-6900"
					}
				],
				"type": [
					{
						"coding": [
							{
								"system": "http://terminology.hl7.org/CodeSystem/organization-type",
								"code": "pay",
								"display": "Payer"
							}
						]
					}
				]
			}
		}
	]
}