{
	"id": "IPPassLOS119days",
	"resourceType": "Bundle",
	"type": "collection",
	"entry": [
	  {
		"fullUrl": "IPPassLOS119days",
		"resource": {
		  "id": "IPPassLOS119days",
		  "meta": {
			"profile": [
			  "http://hl7.org/fhir/us/qicore/StructureDefinition/qicore-patient"
			]
		  },
		  "resourceType": "Patient",
		  "text": {
			"status": "generated",
			"div": "<div xmlns=\"http://www.w3.org/1999/xhtml\"><div class=\"hapiHeaderText\">LOS119days <b>IPPASS </b></div><table class=\"hapiPropertyTable\"><tbody><tr><td>Identifier</td><td>98bbafa0f3f0ba2f58ea7c825e2454d6</td></tr><tr><td>Date of birth</td><td><span>20 August 1994</span></td></tr></tbody></table></div>"
		  },
		  "extension": [
			{
			  "extension": [
				{
				  "url": "ombCategory",
				  "valueCoding": {
					"system": "urn:oid:2.16.840.1.113883.6.238",
					"code": "1002-5",
					"display": "American Indian or Alaska Native",
					"userSelected": true
				  }
				},
				{
				  "url": "text",
				  "valueString": "American Indian or Alaska Native"
				}
			  ],
			  "url": "http://hl7.org/fhir/us/core/StructureDefinition/us-core-race"
			},
			{
			  "extension": [
				{
				  "url": "ombCategory",
				  "valueCoding": {
					"system": "urn:oid:2.16.840.1.113883.6.238",
					"code": "2135-2",
					"display": "Hispanic or Latino",
					"userSelected": true
				  }
				},
				{
				  "url": "text",
				  "valueString": "Hispanic or Latino"
				}
			  ],
			  "url": "http://hl7.org/fhir/us/core/StructureDefinition/us-core-ethnicity"
			}
		  ],
		  "identifier": [
			{
			  "type": {
				"coding": [
				  {
					"system": "http://terminology.hl7.org/CodeSystem/v2-0203",
					"code": "MR"
				  }
				]
			  },
			  "system": "https://bonnie-fhir.healthit.gov/",
			  "value": "IPPassLOS119days"
			}
		  ],
		  "active": true,
		  "name": [
			{
			  "use": "usual",
			  "family": "IPPass",
			  "given": [
				"LOS119days"
			  ]
			}
		  ],
		  "gender": "male",
		  "birthDate": "2003-08-20"
		}
	  },
	  {
		"fullUrl": "5c954112b8484612c37f277f",
		"resource": {
		  "id": "5c954112b8484612c37f277f",
		  "resourceType": "Encounter",
		  "meta": {
			"profile": [
				"http://hl7.org/fhir/us/qicore/StructureDefinition/qicore-encounter"
			]
		  },
		  "status": "finished",
		  "class": {
			"system": "http://terminology.hl7.org/CodeSystem/v3-ActCode",
			"code": "IMP",
			"display": "inpatient encounter",
			"userSelected": true
		  },
		  "type": [
			{
			  "coding": [
				{
				  "system": "http://snomed.info/sct",
				  "code": "32485007"
				}
			  ]
			}
		  ],
		  "subject": {
			"reference": "Patient/IPPassLOS119days"
		  },
		  "period": {
			"start": "2022-08-21T00:00:00.000+00:00",
			"end": "2022-12-18T23:59:00.000+00:00"
		  },
		  "length": {
			"value": 119.0,
			"unit": "days"
		  },
		  "diagnosis": [
			{
			  "condition": {
				"reference": "Condition/ischemic-stroke-7f19"
			  },
			  "use": {
				"coding": [
				  {
					"system": "http://snomed.info/sct",
					"code": "111297002",
					"display": "Ischemic Stroke"
				  }
				]
			  },
			  "rank": 1
			}
		  ]
		}
	  },
	  {
		"fullUrl": "ischemic-stroke-7f19",
		"resource": {
		  "id": "ischemic-stroke-7f19",
		  "subject": {
			"reference": "Patient/IPPassLOS119days"
		  },
		  "resourceType": "Condition",
		  "meta": {
			"profile": [
			"http://hl7.org/fhir/us/qicore/StructureDefinition/qicore-condition"
			]
		  },
    	  "verificationStatus": {
    		"coding": [
    		  {
    			"system": "http://terminology.hl7.org/CodeSystem/condition-ver-status",
    			"code": "confirmed",
    			"display": "Confirmed"
    		  }
    		]
    	  },
		  "category": [
    		{
    		  "coding": [
    			{
    			  "system": "http://terminology.hl7.org/CodeSystem/condition-category",
    			  "code": "encounter-diagnosis",
    			  "display": "Encounter Diagnosis"
    			}
    		  ]
    		}
  	  ],
		  "code": {
			"coding": [
			  {
				"system": "http://snomed.info/sct",
				"version": "2020-09",
				"code": "111297002",
				"display": "Nonparalytic stroke (disorder)",
				"userSelected": true
			  }
			]
		  },
		  "recordedDate": "2022-07-15T08:00:00.000+00:00"
		}
	  }
	]
  }