{
	"id": "DENEXPassAMAMADiE",
	"resourceType": "Bundle",
	"type": "collection",
	"entry": [
		{
			"fullUrl": "DENEXPassAMAMADiE",
			"resource": {
				"id": "DENEXPassAMAMADiE",
				"meta": {
					"profile": [
						"http://hl7.org/fhir/us/qicore/StructureDefinition/qicore-patient"
					]
				},
				"resourceType": "Patient",
				"text": {
					"status": "generated",
					"div": "<div xmlns=\"http://www.w3.org/1999/xhtml\"><div class=\"hapiHeaderText\">AMA <b>DENEXPASS </b></div><table class=\"hapiPropertyTable\"><tbody><tr><td>Identifier</td><td>b38296647323cdc7f628f752ac1b84d0</td></tr><tr><td>Date of birth</td><td><span>31 July 1969</span></td></tr></tbody></table></div>"
				},
				"extension": [
					{
						"extension": [
							{
								"url": "ombCategory",
								"valueCoding": {
									"system": "urn:oid:2.16.840.1.113883.6.238",
									"code": "1002-5",
									"display": "American Indian or Alaska Native",
									"userSelected": true
								}
							},
							{
								"url": "text",
								"valueString": "American Indian or Alaska Native"
							}
						],
						"url": "http://hl7.org/fhir/us/core/StructureDefinition/us-core-race"
					},
					{
						"extension": [
							{
								"url": "ombCategory",
								"valueCoding": {
									"system": "urn:oid:2.16.840.1.113883.6.238",
									"code": "2135-2",
									"display": "Hispanic or Latino",
									"userSelected": true
								}
							},
							{
								"url": "text",
								"valueString": "Hispanic or Latino"
							}
						],
						"url": "http://hl7.org/fhir/us/core/StructureDefinition/us-core-ethnicity"
					}
				],
				"identifier": [
					{
						"type": {
							"coding": [
								{
									"system": "http://terminology.hl7.org/CodeSystem/v2-0203",
									"code": "MR"
								}
							]
						},
						"system": "https://bonnie-fhir.healthit.gov/",
						"value": "DENEXPassAMAMADiE"
					}
				],
				"active": true,
				"name": [
					{
						"use": "usual",
						"family": "DENEXPass",
						"given": [
							"AMA"
						]
					}
				],
				"gender": "male",
				"birthDate": "1969-07-31"
			}
		},
		{
			"fullUrl": "5c953f97b848462de0ae40d7",
			"resource": {
				"id": "5c953f97b848462de0ae40d7",
				"resourceType": "Encounter",
				"meta": {
					"profile": [
						"http://hl7.org/fhir/us/qicore/StructureDefinition/qicore-encounter"
					]
				},
				"class": {
					"system": "http://terminology.hl7.org/CodeSystem/v3-ActCode",
					"code": "IMP",
					"display": "inpatient encounter"
				},
				"status": "finished",
				"type": [
					{
						"coding": [
							{
								"system": "http://snomed.info/sct",
								"code": "32485007"
							}
						]
					}
				],
				"subject": {
					"reference": "Patient/DENEXPassAMAMADiE"
				},
				"period": {
					"start": "2022-11-20T08:00:00.000Z",
					"end": "2022-11-24T08:15:00.000Z"
				},
				"length": {
					"value": 4.0,
					"unit": "days"
				},
				"diagnosis": [
					{
						"condition": {
							"reference": "Condition/ischemic-stroke-6dfa"
						},
						"use": {
							"coding": [
								{
									"system": "http://snomed.info/sct",
									"code": "111297002",
									"display": "Nonparalytic stroke (disorder)",
									"userSelected": true
								}
							]
						},
						"rank": 1
					}
				],
				"hospitalization": {
					"dischargeDisposition": {
						"coding": [
							{
								"system": "http://snomed.info/sct",
								"code": "445060000",
								"display": "Left Against Medical Advice"
							}
						]
					}
				}
			}
		},
		{
			"fullUrl": "5c953f97b848462de0ae40d9",
			"resource": {
				"id": "5c953f97b848462de0ae40d9",
				"resourceType": "Procedure",
				"meta": {
					"profile": [
						"http://hl7.org/fhir/us/qicore/StructureDefinition/qicore-procedure"
					]
				},
				"extension": [
					{
						"url": "http://hl7.org/fhir/us/qicore/StructureDefinition/qicore-recorded",
						"valueDateTime": "2013-04-05T09:35:00-04:00"
					}
				],
				"status": "completed",
				"code": {
					"coding": [
						{
							"system": "http://www.cms.gov/Medicare/Coding/ICD10",
							"code": "02560ZZ"
						},
						{
							"system": "http://snomed.info/sct",
							"code": "175095005"
						}
					]
				},
				"subject": {
					"reference": "Patient/DENEXPassAMAMADiE"
				},
				"performedPeriod": {
					"start": "2022-11-19T08:00:00.000Z",
					"end": "2022-11-20T08:15:00.000Z"
				}
			}
		},
		{
			"fullUrl": "ischemic-stroke-6dfa",
			"resource": {
				"id": "ischemic-stroke-6dfa",
				"resourceType": "Condition",
				"meta": {
					"profile": [
						"http://hl7.org/fhir/us/qicore/StructureDefinition/qicore-condition"
					]
				},
				"category": [
					{
						"coding": [
							{
								"system": "http://terminology.hl7.org/CodeSystem/condition-category",
								"code": "encounter-diagnosis",
								"display": "Encounter Diagnosis"
							}
						]
					}
				],
				"clinicalStatus": {
					"coding": [
						{
							"system": "http://terminology.hl7.org/CodeSystem/condition-clinical",
							"code": "active"
						}
					]
				},
				"verificationStatus": {
					"coding": [
						{
							"system": "http://terminology.hl7.org/CodeSystem/condition-ver-status",
							"code": "confirmed"
						}
					]
				},
				"code": {
					"coding": [
						{
							"system": "http://snomed.info/sct",
							"version": "2021-09",
							"code": "111297002",
							"display": "Nonparalytic stroke (disorder)",
							"userSelected": true
						}
					]
				},
				"recordedDate": "2022-10-04T08:00:00.000+00:00",
				"subject": {
					"reference": "Patient/DENEXPassAMAMADiE"
				}
			}
		},
		{
			"fullUrl": "http://coverage/1",
			"resource": {
				"resourceType": "Coverage",
				"beneficiary": {
					"reference": "Patient/DENEXPassAMAMADiE"
				},
				"id": "1",
				"meta": {
					"profile": [
						"http://hl7.org/fhir/us/qicore/StructureDefinition/qicore-coverage"
					]
				},
				"payor": [
					{
						"reference": "Organization/123456"
					}
				],
				"status": "active"
			}
		},
		{
			"fullUrl": "http://Organization/123456",
			"resource": {
				"resourceType": "Organization",
				"active": true,
				"address": [
					{
						"use": "billing",
						"type": "postal",
						"line": [
							"P.O. Box 660044"
						],
						"city": "Dallas",
						"state": "TX",
						"postalCode": "75266-0044",
						"country": "USA"
					}
				],
				"id": "123456",
				"identifier": [
					{
						"use": "temp",
						"system": "urn:oid:2.16.840.1.113883.4.4",
						"value": "21-3259825"
					}
				],
				"meta": {
					"profile": [
						"http://hl7.org/fhir/us/qicore/StructureDefinition/qicore-organization"
					]
				},
				"name": "Blue Cross Blue Shield of Texas",
				"telecom": [
					{
						"system": "phone",
						"value": "(+1) 972-766-6900"
					}
				],
				"type": [
					{
						"coding": [
							{
								"system": "http://terminology.hl7.org/CodeSystem/organization-type",
								"code": "pay",
								"display": "Payer"
							}
						]
					}
				]
			}
		}
	]
}