{
	"id": "641d89067249d50d926fc59b",
	"resourceType": "Bundle",
	"type": "collection",
	"entry": [
		{
			"fullUrl": "641d89067249d50d926fc59b",
			"resource": {
				"id": "CMS177_NUMFail",
				"meta": {
					"profile": [
						"http://hl7.org/fhir/us/qicore/StructureDefinition/qicore-patient"
					]
				},
				"resourceType": "Patient",
				"text": {
					"status": "generated",
					"div": "<div xmlns=\"http://www.w3.org/1999/xhtml\"><div class=\"hapiHeaderText\">RiskAssessB4OVEnc <b>NUMERFAIL </b></div><table class=\"hapiPropertyTable\"><tbody><tr><td>Identifier</td><td>02bb6083a115e15fef455103ef71fd07</td></tr><tr><td>Date of birth</td><td><span>13 December 1995</span></td></tr></tbody></table></div>"
				},
				"extension": [
					{
						"extension": [
							{
								"url": "ombCategory",
								"valueCoding": {
									"system": "urn:oid:2.16.840.1.113883.6.238",
									"code": "1002-5",
									"display": "American Indian or Alaska Native",
									"userSelected": true
								}
							},
							{
								"url": "text",
								"valueString": "American Indian or Alaska Native"
							}
						],
						"url": "http://hl7.org/fhir/us/core/StructureDefinition/us-core-race"
					},
					{
						"extension": [
							{
								"url": "ombCategory",
								"valueCoding": {
									"system": "urn:oid:2.16.840.1.113883.6.238",
									"code": "2186-5",
									"display": "Not Hispanic or Latino",
									"userSelected": true
								}
							},
							{
								"url": "text",
								"valueString": "Not Hispanic or Latino"
							}
						],
						"url": "http://hl7.org/fhir/us/core/StructureDefinition/us-core-ethnicity"
					}
				],
				"identifier": [
					{
						"type": {
							"coding": [
								{
									"system": "http://terminology.hl7.org/CodeSystem/v2-0203",
									"code": "MR"
								}
							]
						},
						"system": "https://bonnie-fhir.healthit.gov/",
						"value": "641d89067249d50d926fc59b"
					}
				],
				"active": true,
				"name": [
					{
						"use": "usual",
						"family": "4NUMFail",
						"given": [
							"SRABeforeEnc"
						]
					}
				],
				"gender": "male",
				"birthDate": "2009-12-13"
			}
		},
		{
			"fullUrl": "5c98fd1ab848464ed33e9ea7",
			"resource": {
				"id": "5c98fd1ab848464ed33e9ea7",
				"resourceType": "Encounter",
				"meta": {
					"profile": [
						"http://hl7.org/fhir/us/qicore/StructureDefinition/qicore-encounter"
					]
				},
				"status": "finished",
				"class": {
					"system": "http://terminology.hl7.org/CodeSystem/v3-ActCode",
					"code": "AMB",
					"display": "ambulatory",
					"userSelected": true
				},
				"type": [
					{
						"coding": [
							{
								"system": "http://snomed.info/sct",
								"code": "185463005"
							}
						]
					}
				],
				"subject": {
					"reference": "Patient/CMS177_NUMFail"
				},
				"period": {
					"start": "2023-02-11T08:00:00.000+00:00",
					"end": "2023-02-11T08:15:00.000+00:00"
				},
				"diagnosis": [
					{
						"condition": {
							"reference": "Condition/major-depressive-disorder-active-c59c"
						},
						"use": {
							"coding": [
								{
									"system": "http://hl7.org/fhir/sid/icd-10-cm",
									"version": "2022",
									"code": "F32.3",
									"display": "Major depressive disorder, single episode, severe with psychotic features",
									"userSelected": true
								}
							]
						}
					}
				]
			}
		},
		{
			"fullUrl": "5c98fd1ab848464ed33e9ea8",
			"resource": {
				"id": "5c98fd1ab848464ed33e9ea8",
				"resourceType": "Procedure",
				"meta": {
					"profile": [
						"http://hl7.org/fhir/us/qicore/StructureDefinition/qicore-procedure"
					]
				},
				"extension": [
					{
						"url": "http://hl7.org/fhir/us/qicore/StructureDefinition/qicore-recorded",
						"valueDateTime": "2023-01-02T12:35:00.000Z"
					}
				],
				"status": "completed",
				"category": {
					"coding": [
						{
							"system": "http://snomed.info/sct",
							"code": "24642003",
							"display": "Psychiatry procedure or service",
							"userSelected": true
						}
					]
				},
				"code": {
					"coding": [
						{
							"system": "http://snomed.info/sct",
							"code": "225337009"
						}
					]
				},
				"subject": {
					"reference": "Patient/CMS177_NUMFail"
				},
				"performedPeriod": {
					"start": "2023-01-11T08:00:00.000+00:00",
					"end": "2023-01-11T08:15:00.000+00:00"
				}
			}
		},
		{
			"fullUrl": "major-depressive-disorder-active-c59c",
			"resource": {
				"id": "major-depressive-disorder-active-c59c",
				"resourceType": "Condition",
				"meta": {
					"profile": [
						"http://hl7.org/fhir/us/qicore/StructureDefinition/qicore-condition"
					]
				},
				"clinicalStatus": {
					"coding": [
						{
							"system": "http://terminology.hl7.org/CodeSystem/condition-clinical",
							"code": "active",
							"display": "active",
							"userSelected": true
						}
					]
				},
				"verificationStatus": {
					"coding": [
						{
							"system": "http://terminology.hl7.org/CodeSystem/condition-ver-status",
							"code": "confirmed",
							"display": "Confirmed",
							"userSelected": true
						}
					]
				},
				"category": [
					{
						"coding": [
							{
								"system": "http://terminology.hl7.org/CodeSystem/condition-category",
								"code": "encounter-diagnosis",
								"display": "Encounter Diagnosis",
								"userSelected": true
							}
						]
					}
				],
				"code": {
					"coding": [
						{
							"system": "http://hl7.org/fhir/sid/icd-10-cm",
							"code": "F32.3",
							"userSelected": true
						}
					]
				},
				"onsetDateTime": "2023-02-11T08:00:00.000+00:00",
				"subject": {
					"reference": "Patient/CMS177_NUMFail"
				}
			}
		},
		{
			"fullUrl": "http://coverage/1",
			"resource": {
				"resourceType": "Coverage",
				"beneficiary": {
					"reference": "Patient/CMS177_NUMFail"
				},
				"id": "1",
				"meta": {
					"profile": [
						"http://hl7.org/fhir/us/qicore/StructureDefinition/qicore-coverage"
					]
				},
				"payor": [
					{
						"reference": "Organization/123456"
					}
				],
				"status": "active"
			}
		},
		{
			"fullUrl": "http://Organization/123456",
			"resource": {
				"resourceType": "Organization",
				"active": true,
				"address": [
					{
						"use": "billing",
						"type": "postal",
						"line": [
							"P.O. Box 660044"
						],
						"city": "Dallas",
						"state": "TX",
						"postalCode": "75266-0044",
						"country": "USA"
					}
				],
				"id": "123456",
				"identifier": [
					{
						"use": "temp",
						"system": "urn:oid:2.16.840.1.113883.4.4",
						"value": "21-3259825"
					}
				],
				"meta": {
					"profile": [
						"http://hl7.org/fhir/us/qicore/StructureDefinition/qicore-organization"
					]
				},
				"name": "Blue Cross Blue Shield of Texas",
				"telecom": [
					{
						"system": "phone",
						"value": "(+1) 972-766-6900"
					}
				],
				"type": [
					{
						"coding": [
							{
								"system": "http://terminology.hl7.org/CodeSystem/organization-type",
								"code": "pay",
								"display": "Payer"
							}
						]
					}
				]
			}
		},
		{
			"fullUrl": "http://Practitioner/123456",
			"resource": {
				"resourceType": "Practitioner",
				"id": "practitioner-123456",
				"name": [
					{
						"family": "Evil",
						"prefix": [
							"Dr"
						]
					}
				],
				"identifier": [
					{
						"system": "http://hl7.org/fhir/sid/us-npi",
						"value": "123456"
					}
				]
			}
		}
	]
}