{
  "id": "62fd4b6a0968f8012246b316",
  "resourceType": "Bundle",
  "type": "collection",
  "entry": [
    {
      "fullUrl": "62fd4b6a0968f8012246b316",
      "resource": {
        "id": "CMS50-NUMERFail",
        "meta": {
          "profile": [
            "http://hl7.org/fhir/us/qicore/StructureDefinition/qicore-patient"
          ]
        },
        "resourceType": "Patient",
        "extension": [
          {
            "extension": [
              {
                "url": "ombCategory",
                "valueCoding": {
                  "system": "urn:oid:2.16.840.1.113883.6.238",
                  "code": "1002-5",
                  "display": "American Indian or Alaska Native",
                  "userSelected": true
                }
              },
              {
                "url": "text",
                "valueString": "American Indian or Alaska Native"
              }
            ],
            "url": "http://hl7.org/fhir/us/core/StructureDefinition/us-core-race"
          },
          {
            "extension": [
              {
                "url": "ombCategory",
                "valueCoding": {
                  "system": "urn:oid:2.16.840.1.113883.6.238",
                  "code": "2135-2",
                  "display": "Hispanic or Latino",
                  "userSelected": true
                }
              },
              {
                "url": "text",
                "valueString": "Hispanic or Latino"
              }
            ],
            "url": "http://hl7.org/fhir/us/core/StructureDefinition/us-core-ethnicity"
          }
        ],
        "identifier": [
          {
            "type": {
              "coding": [
                {
                  "system": "http://terminology.hl7.org/CodeSystem/v2-0203",
                  "code": "MR"
                }
              ]
            },
            "system": "https://bonnie-fhir.healthit.gov/",
            "value": "62fd4b6a0968f8012246b316"
          }
        ],
        "name": [
          {
            "family": "NUMERFail",
            "given": [
              "2ndreferralwithConsReport"
            ]
          }
        ],
        "gender": "female",
        "birthDate": "1989-12-31"
      }
    },
    {
      "fullUrl": "consultant-report-070e",
      "resource": {
        "id": "consultant-report-070e",
        "resourceType": "Task",
         "meta": {
          "profile": [
            "http://hl7.org/fhir/us/qicore/StructureDefinition/qicore-task"
          ]
        },
         "identifier": [
    {
      "use": "official",
      "system": "http:/goodhealth.org/identifiers",
      "value": "20170201-002"
    }
  ],
        "basedOn": [
          {
            "reference": "ServiceRequest/referral-070f"
          }
        ],
        "status": "accepted",
        "intent": "order",
        "priority": "routine",
        "code": {
          "coding": [
            {
              "system": "http://loinc.org",
              "version": "2.72",
              "code": "11488-4",
              "display": "Consult note",
              "userSelected": true
            }
          ]
        },
        "executionPeriod": {
          "start": "2023-06-06T08:00:00.000+00:00",
          "end": "2023-06-06T08:15:00.000+00:00"
        }
      }
    },
    {
      "fullUrl": "referral-070f",
      "resource": {
        "id": "referral-070f",
        "resourceType": "ServiceRequest",
         "meta": {
	          "profile": ["http://hl7.org/fhir/us/qicore/StructureDefinition/qicore-servicerequest"
					]
				},
        "status": "active",
        "intent": "order",
        "code": {
          "coding": [
            {
              "system": "http://snomed.info/sct",
              "version": "2022-03",
              "code": "103696004",
              "display": "Patient referral to specialist (procedure)",
              "userSelected": true
            }
          ]
        },
        "subject": {
          "reference": "Patient/CMS50-NUMERFail"
         },        
        "authoredOn": "2023-06-06T08:00:00.000+00:00"
      }
    },
    {
      "fullUrl": "consultant-report-d99e",
      "resource": {
        "id": "consultant-report-d99e",
        "resourceType": "Task",
         "meta": {
          "profile": [
            "http://hl7.org/fhir/us/qicore/StructureDefinition/qicore-task"
          ]
        },
         "identifier": [
    {
      "use": "official",
      "system": "http:/goodhealth.org/identifiers",
      "value": "20170201-002"
    }
  ],
        "basedOn": [
          {
            "reference": "ServiceRequest/referral-d99f"
          }
        ],
        "status": "failed",
        "intent": "order",
         "priority": "routine",
        "code": {
          "coding": [
            {
              "system": "http://loinc.org",
              "version": "2.72",
              "code": "11488-4",
              "display": "Consult note",
              "userSelected": true
            }
          ]
        },
        "executionPeriod": {
          "start": "2023-06-09T08:00:00.000+00:00",
          "end": "2023-06-09T08:15:00.000+00:00"
        }
      }
    },
    {
      "fullUrl": "referral-d99f",
      "resource": {
        "id": "referral-d99f",
        "resourceType": "ServiceRequest",
         "meta": {
	          "profile": ["http://hl7.org/fhir/us/qicore/StructureDefinition/qicore-servicerequest"
					]
				},
        "status": "active",
        "intent": "order",
        "code": {
          "coding": [
            {
              "system": "http://snomed.info/sct",
              "version": "2022-03",
              "code": "103696004",
              "display": "Patient referral to specialist (procedure)",
              "userSelected": true
            }
          ]
        },
        "subject": {
          "reference": "Patient/CMS50-NUMERFail"
         },        
        "authoredOn": "2023-01-09T08:00:00.000+00:00"
      }
    },
    {
      "fullUrl": "ophthalmological-services-1ea9",
      "resource": {
        "id": "ophthalmological-services-1ea9",
        "resourceType": "Encounter",
         "meta": {
		"profile": ["http://hl7.org/fhir/us/qicore/StructureDefinition/qicore-encounter"
		]
		},
        "status": "finished",
        "class": {
          "system": "http://terminology.hl7.org/CodeSystem/v3-ActCode",
           "code": "IMP",
          "display": "inpatient encounter"
         },        
        "type": [
          {
            "coding": [
              {
                "system": "http://snomed.info/sct",
                "version": "2022-03",
                "code": "359960003",
                "display": "Ophthalmologic examination and evaluation under general anesthesia, limited (procedure)",
                "userSelected": true
              }
            ]
          }
        ],
         "subject": {
          "reference": "Patient/CMS50-NUMERFail"
         },       
        "period": {
          "start": "2023-05-27T08:00:00.000+00:00",
          "end": "2023-05-27T09:15:00.000+00:00"
        }
      }
    }
  ]
}