{
	"id": "62fd4b650968f8012246afa2",
	"resourceType": "Bundle",
	"type": "collection",
	"entry": [
		{
			"fullUrl": "62fd4b650968f8012246afa2",
			"resource": {
				"id": "CMS50-NUMERPass",
				"meta": {
					"profile": [
						"http://hl7.org/fhir/us/qicore/StructureDefinition/qicore-patient"
					]
				},
				"resourceType": "Patient",
				"extension": [
					{
						"extension": [
							{
								"url": "ombCategory",
								"valueCoding": {
									"system": "urn:oid:2.16.840.1.113883.6.238",
									"code": "1002-5",
									"display": "American Indian or Alaska Native",
									"userSelected": true
								}
							},
							{
								"url": "text",
								"valueString": "American Indian or Alaska Native"
							}
						],
						"url": "http://hl7.org/fhir/us/core/StructureDefinition/us-core-race"
					},
					{
						"extension": [
							{
								"url": "ombCategory",
								"valueCoding": {
									"system": "urn:oid:2.16.840.1.113883.6.238",
									"code": "2135-2",
									"display": "Hispanic or Latino",
									"userSelected": true
								}
							},
							{
								"url": "text",
								"valueString": "Hispanic or Latino"
							}
						],
						"url": "http://hl7.org/fhir/us/core/StructureDefinition/us-core-ethnicity"
					}
				],
				"identifier": [
					{
						"type": {
							"coding": [
								{
									"system": "http://terminology.hl7.org/CodeSystem/v2-0203",
									"code": "MR"
								}
							]
						},
						"system": "https://bonnie-fhir.healthit.gov/",
						"value": "62fd4b650968f8012246afa2"
					}
				],
				"name": [
					{
						"family": "NUMERPass",
						"given": [
							"ConsReportStatusCompleted"
						]
					}
				],
				"gender": "female",
				"birthDate": "1989-12-31"
			}
		},
		{
			"fullUrl": "preventive-care-services-established-office-visit-18-and-up-11d4",
			"resource": {
				"id": "preventive-care-services-established-office-visit-18-and-up-11d4",
				"resourceType": "Encounter",
				 "meta": {
             "profile": ["http://hl7.org/fhir/us/qicore/StructureDefinition/qicore-encounter"
             ]
             },
				"status": "finished",
				"class": {
           "system": "http://terminology.hl7.org/CodeSystem/v3-ActCode",
            "code": "IMP",
             "display": "inpatient encounter"
    },

				"type": [
					{
						"coding": [
							{
								"system": "http://www.ama-assn.org/go/cpt",
								"version": "2021",
								"code": "99395",
								"display": "Periodic comprehensive preventive medicine reevaluation and management of an individual including an age and gender appropriate history, examination, counseling/anticipatory guidance/risk factor reduction interventions, and the ordering of laboratory/diagnostic procedures, established patient; 18-39 years",
								"userSelected": true
							}
						]
					}
				],
				"period": {
					"start": "2023-05-27T08:00:00.000+00:00",
					"end": "2023-05-27T09:15:00.000+00:00"
				},
				"subject": {
					"reference": "Patient/CMS50-NUMERPass"
				}
			}
		},
		{
			"fullUrl": "consultant-report-11d5",
			"resource": {
				"id": "consultant-report-11d5",
				"resourceType": "Task",
				"meta": {
          "profile": [
            "http://hl7.org/fhir/us/qicore/StructureDefinition/qicore-task"
          ]
        },
        "identifier": [
    {
      "use": "official",
      "system": "http:/goodhealth.org/identifiers",
      "value": "20170201-002"
    }
   ],
				"basedOn": [
					{
						"reference": "ServiceRequest/referral-6b09"
					}
				],
				"status": "completed",
				"intent": "order",
				"priority":"routine",
				"code": {
					"coding": [
						{
							"system": "http://loinc.org",
							"version": "2.72",
							"code": "11488-4",
							"display": "Consult note",
							"userSelected": true
						}
					]
				},
				"for": {
					"reference": "Patient/CMS50-NUMERPass"
				},
				"executionPeriod": {
					"start": "2023-12-31T23:00:00.000+00:00",
					"end": "2023-12-31T23:59:00.000+00:00"
				}
			}
    },
    {
      "fullUrl": "referral-6b09",
      "resource": {
        "id": "referral-6b09",
        "resourceType": "ServiceRequest",
         "meta": {
	          "profile": ["http://hl7.org/fhir/us/qicore/StructureDefinition/qicore-servicerequest"
					]
				},
        "status": "active",
        "intent": "order",
        "code": {
          "coding": [
            {
              "system": "http://snomed.info/sct",
              "version": "2022-03",
              "code": "103696004",
              "display": "Patient referral to specialist (procedure)",
              "userSelected": true
            }
          ]
        },
         "subject": {
          "reference": "Patient/CMS50-NUMERPass"
         },    
        "authoredOn": "2023-05-31T08:00:00.000+00:00"
      }
    }
  ]
}
