{"resourceType":"Bundle","id":"tests-CMS996IPP-pass-bundle","type":"transaction","entry":[{"resource":{"resourceType":"Bundle","id":"6419dca79c0269a68225bb41","type":"collection","entry":[{"fullUrl":"6419dca79c0269a68225bb41","resource":{"resourceType":"Patient","id":"CMS996IPP-pass","meta":{"profile":["http://hl7.org/fhir/us/qicore/StructureDefinition/qicore-patient"]},"extension":[{"url":"http://hl7.org/fhir/us/core/StructureDefinition/us-core-race","extension":[{"url":"ombCategory","valueCoding":{"system":"urn:oid:2.16.840.1.113883.6.238","code":"2106-3","display":"White","userSelected":true}},{"url":"text","valueString":"White"}]},{"url":"http://hl7.org/fhir/us/core/StructureDefinition/us-core-ethnicity","extension":[{"url":"ombCategory","valueCoding":{"system":"urn:oid:2.16.840.1.113883.6.238","code":"2186-5","display":"Not Hispanic or Latino","userSelected":true}},{"url":"text","valueString":"Not Hispanic or Latino"}]}],"identifier":[{"type":{"coding":[{"system":"http://terminology.hl7.org/CodeSystem/v2-0203","code":"MR"}]},"system":"https://bonnie-fhir.healthit.gov/","value":"6419dca79c0269a68225bb41"}],"name":[{"family":"1IPPass","given":["STEMIstartsduringendsduringEnc"]}],"gender":"female","birthDate":"1984-12-02"}},{"fullUrl":"emergency-department-visit-e632","resource":{"resourceType":"Encounter","id":"emergency-department-visit-e632","meta":{"profile":["http://hl7.org/fhir/us/qicore/StructureDefinition/qicore-encounter"]},"status":"finished","class":{"system":"http://terminology.hl7.org/CodeSystem/v3-ActCode","code":"EMER","display":"emergency","userSelected":true},"type":[{"coding":[{"system":"http://snomed.info/sct","version":"2020-09","code":"4525004","display":"Emergency department patient visit (procedure)","userSelected":true}]}],"subject":{"reference":"Patient/CMS996IPP-pass"},"period":{"start":"2023-10-09T08:05:00.000+00:00","end":"2023-10-10T07:15:00.000+00:00"},"diagnosis":[{"condition":{"reference":"Condition/stemi-e633"}}]}},{"fullUrl":"stemi-e633","resource":{"resourceType":"Condition","id":"stemi-e633","meta":{"profile":["http://hl7.org/fhir/us/qicore/StructureDefinition/qicore-condition"]},"clinicalStatus":{"coding":[{"system":"http://terminology.hl7.org/CodeSystem/condition-clinical","code":"active","display":"active","userSelected":true}]},"verificationStatus":{"coding":[{"system":"http://terminology.hl7.org/CodeSystem/condition-ver-status","code":"confirmed"}]},"category":[{"coding":[{"system":"http://terminology.hl7.org/CodeSystem/condition-category","code":"encounter-diagnosis","display":"Encounter Diagnosis"}]}],"code":{"coding":[{"system":"http://hl7.org/fhir/sid/icd-10-cm","code":"I21.19","userSelected":true}]},"subject":{"reference":"Patient/CMS996IPP-pass"},"onsetDateTime":"2023-10-09T08:07:00.000+00:00"}}]},"request":{"method":"PUT","url":"Bundle/6419dca79c0269a68225bb41"}}]}