{
	"id": "DENOMPassPrinDxIschemicStkMADiE",
	"resourceType": "Bundle",
	"type": "collection",
	"entry": [
		{
			"fullUrl": "DENOMPassPrinDxIschemicStkMADiE",
			"resource": {
				"id": "DENOMPassPrinDxIschemicStkMADiE",
				"meta": {
					"profile": [
						"http://hl7.org/fhir/us/qicore/StructureDefinition/qicore-patient"
					]
				},
				"resourceType": "Patient",
				"text": {
					"status": "generated",
					"div": "<div xmlns=\"http://www.w3.org/1999/xhtml\"><div class=\"hapiHeaderText\">PrinDxIschemicStk <b>DENOMPASS </b></div><table class=\"hapiPropertyTable\"><tbody><tr><td>Identifier</td><td>18194897e45f8ffb9878afc760b9d205</td></tr><tr><td>Date of birth</td><td><span>20 August 1994</span></td></tr></tbody></table></div>"
				},
				"extension": [
					{
						"extension": [
							{
								"url": "ombCategory",
								"valueCoding": {
									"system": "urn:oid:2.16.840.1.113883.6.238",
									"code": "1002-5",
									"display": "American Indian or Alaska Native",
									"userSelected": true
								}
							},
							{
								"url": "text",
								"valueString": "American Indian or Alaska Native"
							}
						],
						"url": "http://hl7.org/fhir/us/core/StructureDefinition/us-core-race"
					},
					{
						"extension": [
							{
								"url": "ombCategory",
								"valueCoding": {
									"system": "urn:oid:2.16.840.1.113883.6.238",
									"code": "2135-2",
									"display": "Hispanic or Latino",
									"userSelected": true
								}
							},
							{
								"url": "text",
								"valueString": "Hispanic or Latino"
							}
						],
						"url": "http://hl7.org/fhir/us/core/StructureDefinition/us-core-ethnicity"
					}
				],
				"identifier": [
					{
						"type": {
							"coding": [
								{
									"system": "http://terminology.hl7.org/CodeSystem/v2-0203",
									"code": "MR"
								}
							]
						},
						"system": "https://bonnie-fhir.healthit.gov/",
						"value": "DENOMPassPrinDxIschemicStkMADiE"
					}
				],
				"active": true,
				"name": [
					{
						"use": "usual",
						"family": "DENOMPass",
						"given": [
							"PrinDxIschemicStk"
						]
					}
				],
				"gender": "male",
				"birthDate": "2003-08-20"
			}
		},
		{
			"fullUrl": "5c954112b8484612c37f277d",
			"resource": {
				"id": "5c954112b8484612c37f277d",
				"resourceType": "Encounter",
				"meta": {
					"profile": [
						"http://hl7.org/fhir/us/qicore/StructureDefinition/qicore-encounter"
					]
				},
				"status": "finished",
				"class": {
					"system": "http://terminology.hl7.org/CodeSystem/v3-ActCode",
					"code": "IMP",
					"display": "inpatient encounter",
					"userSelected": true
				},
				"type": [
					{
						"coding": [
							{
								"system": "http://snomed.info/sct",
								"code": "32485007"
							}
						]
					}
				],
				"subject": {
					"reference": "Patient/DENOMPassPrinDxIschemicStkMADiE"
				},
				"period": {
					"start": "2022-08-21T00:00:00.000+00:00",
					"end": "2022-12-19T08:15:00.000+00:00"
				},
				"length": {
					"value": 120.0,
					"unit": "days"
				},
				"diagnosis": [
					{
						"condition": {
							"reference": "Condition/ischemic-stroke-6266"
						},
						"use": {
							"coding": [
								{
									"system": "http://snomed.info/sct",
									"version": "2020-09",
									"code": "422504002",
									"display": "Ischemic stroke (disorder)",
									"userSelected": true
								}
							]
						},
						"rank": 1
					}
				]
			}
		},
		{
			"fullUrl": "ischemic-stroke-6266",
			"resource": {
				"id": "ischemic-stroke-6266",
				"resourceType": "Condition",
				"meta": {
					"profile": [
						"http://hl7.org/fhir/us/qicore/StructureDefinition/qicore-condition"
					]
				},
				"category": [
					{
						"coding": [
							{
								"system": "http://terminology.hl7.org/CodeSystem/condition-category",
								"code": "encounter-diagnosis",
								"display": "Encounter Diagnosis"
							}
						]
					}
				],
				"clinicalStatus": {
					"coding": [
						{
							"system": "http://terminology.hl7.org/CodeSystem/condition-clinical",
							"code": "active"
						}
					]
				},
				"verificationStatus": {
					"coding": [
						{
							"system": "http://terminology.hl7.org/CodeSystem/condition-ver-status",
							"code": "confirmed"
						}
					]
				},
				"code": {
					"coding": [
						{
							"system": "http://snomed.info/sct",
							"version": "2020-09",
							"code": "111297002",
							"display": "Nonparalytic stroke (disorder)",
							"userSelected": true
						}
					]
				},
				"recordedDate": "2022-11-23T08:00:00.000+00:00",
				"subject": {
					"reference": "Patient/DENOMPassPrinDxIschemicStkMADiE"
				}
			}
		},
		{
			"fullUrl": "http://coverage/1",
			"resource": {
				"resourceType": "Coverage",
				"beneficiary": {
					"reference": "Patient/DENOMPassPrinDxIschemicStkMADiE"
				},
				"id": "1",
				"meta": {
					"profile": [
						"http://hl7.org/fhir/us/qicore/StructureDefinition/qicore-coverage"
					]
				},
				"payor": [
					{
						"reference": "Organization/123456"
					}
				],
				"status": "active"
			}
		},
		{
			"fullUrl": "http://Organization/123456",
			"resource": {
				"resourceType": "Organization",
				"active": true,
				"address": [
					{
						"use": "billing",
						"type": "postal",
						"line": [
							"P.O. Box 660044"
						],
						"city": "Dallas",
						"state": "TX",
						"postalCode": "75266-0044",
						"country": "USA"
					}
				],
				"id": "123456",
				"identifier": [
					{
						"use": "temp",
						"system": "urn:oid:2.16.840.1.113883.4.4",
						"value": "21-3259825"
					}
				],
				"meta": {
					"profile": [
						"http://hl7.org/fhir/us/qicore/StructureDefinition/qicore-organization"
					]
				},
				"name": "Blue Cross Blue Shield of Texas",
				"telecom": [
					{
						"system": "phone",
						"value": "(+1) 972-766-6900"
					}
				],
				"type": [
					{
						"coding": [
							{
								"system": "http://terminology.hl7.org/CodeSystem/organization-type",
								"code": "pay",
								"display": "Payer"
							}
						]
					}
				]
			}
		}
	]
}