{"resourceType":"Bundle","id":"tests-DENOMPassDxEQAfibOrFlutterStartLTEncEndMADiE-bundle","type":"transaction","entry":[{"resource":{"resourceType":"Bundle","id":"DENOMPassDxEQAfibOrFlutterStartLTEncEndMADiE","type":"collection","entry":[{"fullUrl":"DENOMPassDxEQAfibOrFlutterStartLTEncEndMADiE","resource":{"resourceType":"Patient","id":"DENOMPassDxEQAfibOrFlutterStartLTEncEndMADiE","meta":{"profile":["http://hl7.org/fhir/us/qicore/StructureDefinition/qicore-patient"]},"text":{"status":"generated","div":"<div xmlns=\"http://www.w3.org/1999/xhtml\"><div class=\"hapiHeaderText\">Dx=Afib/flutterStart&lt;EncEnd <b>DENOMPASS </b></div><table class=\"hapiPropertyTable\"><tbody><tr><td>Identifier</td><td>78ca765c8eac1b3053de6906cc86801b</td></tr><tr><td>Date of birth</td><td><span>01 December 1960</span></td></tr></tbody></table></div>"},"extension":[{"url":"http://hl7.org/fhir/us/core/StructureDefinition/us-core-race","extension":[{"url":"ombCategory","valueCoding":{"system":"urn:oid:2.16.840.1.113883.6.238","code":"1002-5","display":"American Indian or Alaska Native","userSelected":true}},{"url":"text","valueString":"American Indian or Alaska Native"}]},{"url":"http://hl7.org/fhir/us/core/StructureDefinition/us-core-ethnicity","extension":[{"url":"ombCategory","valueCoding":{"system":"urn:oid:2.16.840.1.113883.6.238","code":"2135-2","display":"Hispanic or Latino","userSelected":true}},{"url":"text","valueString":"Hispanic or Latino"}]}],"identifier":[{"type":{"coding":[{"system":"http://terminology.hl7.org/CodeSystem/v2-0203","code":"MR"}]},"system":"https://bonnie-fhir.healthit.gov/","value":"DENOMPassDxEQAfibOrFlutterStartLTEncEndMADiE"}],"active":true,"name":[{"use":"usual","family":"DENOMPass","given":["Dx=Afib/flutterStart<EncEnd"]}],"gender":"male","birthDate":"1960-12-01"}},{"fullUrl":"5c953f97b848462de0ae40e7","resource":{"resourceType":"Condition","id":"5c953f97b848462de0ae40e7","meta":{"profile":["http://hl7.org/fhir/us/qicore/StructureDefinition/qicore-condition"]},"clinicalStatus":{"coding":[{"system":"http://terminology.hl7.org/CodeSystem/condition-clinical","code":"inactive"}]},"verificationStatus":{"coding":[{"system":"http://terminology.hl7.org/CodeSystem/condition-ver-status","code":"confirmed"}]},"category":[{"coding":[{"system":"http://terminology.hl7.org/CodeSystem/condition-category","code":"encounter-diagnosis","display":"Encounter Diagnosis"}]}],"code":{"coding":[{"system":"http://snomed.info/sct","code":"195080001"},{"system":"urn:oid:2.16.840.1.113883.6.103","code":"427.31"},{"system":"http://hl7.org/fhir/sid/icd-10-cm","code":"I48.0"}]},"subject":{"reference":"Patient/DENOMPassDxEQAfibOrFlutterStartLTEncEndMADiE"},"onsetDateTime":"2022-02-09T08:00:00.000Z","abatementDateTime":"2022-02-09T08:15:00.000Z"}},{"fullUrl":"5c953f97b848462de0ae40e8","resource":{"resourceType":"Encounter","id":"5c953f97b848462de0ae40e8","meta":{"profile":["http://hl7.org/fhir/us/qicore/StructureDefinition/qicore-encounter"]},"status":"finished","class":{"system":"http://terminology.hl7.org/CodeSystem/v3-ActCode","code":"IMP","display":"inpatient encounter"},"type":[{"coding":[{"system":"http://snomed.info/sct","code":"183452005"}]}],"subject":{"reference":"Patient/DENOMPassDxEQAfibOrFlutterStartLTEncEndMADiE"},"period":{"start":"2022-02-08T08:00:00.000Z","end":"2022-02-10T08:15:00.000Z"},"length":{"value":2.0,"unit":"days"},"diagnosis":[{"condition":{"reference":"Condition/ischemic-stroke-197a"},"rank":1}]}},{"fullUrl":"5f2c53ce1c76ba5c99605768","resource":{"resourceType":"Coverage","id":"5f2c53ce1c76ba5c99605768","status":"active","beneficiary":{"reference":"Patient/DENOMPassDxEQAfibOrFlutterStartLTEncEndMADiE"},"period":{"start":"1960-12-01T08:00:00.000Z"},"payor":[{"reference":"Organization/123456"}]}},{"fullUrl":"ischemic-stroke-197a","resource":{"resourceType":"Condition","id":"ischemic-stroke-197a","meta":{"profile":["http://hl7.org/fhir/us/qicore/StructureDefinition/qicore-condition"]},"clinicalStatus":{"coding":[{"system":"http://terminology.hl7.org/CodeSystem/condition-clinical","code":"active"}]},"verificationStatus":{"coding":[{"system":"http://terminology.hl7.org/CodeSystem/condition-ver-status","code":"confirmed"}]},"category":[{"coding":[{"system":"http://terminology.hl7.org/CodeSystem/condition-category","code":"encounter-diagnosis","display":"Encounter Diagnosis"}]}],"code":{"coding":[{"system":"http://snomed.info/sct","version":"2021-09","code":"111297002","display":"Nonparalytic stroke (disorder)","userSelected":true}]},"subject":{"reference":"Patient/DENOMPassDxEQAfibOrFlutterStartLTEncEndMADiE"},"recordedDate":"2022-10-13T08:00:00.000+00:00"}},{"fullUrl":"http://Organization/123456","resource":{"resourceType":"Organization","id":"123456","meta":{"profile":["http://hl7.org/fhir/us/qicore/StructureDefinition/qicore-organization"]},"identifier":[{"use":"temp","system":"urn:oid:2.16.840.1.113883.4.4","value":"21-3259825"}],"active":true,"type":[{"coding":[{"system":"http://terminology.hl7.org/CodeSystem/organization-type","code":"pay","display":"Payer"}]}],"name":"Blue Cross Blue Shield of Texas","telecom":[{"system":"phone","value":"(+1) 972-766-6900"}],"address":[{"use":"billing","type":"postal","line":["P.O. Box 660044"],"city":"Dallas","state":"TX","postalCode":"75266-0044","country":"USA"}]}},{"fullUrl":"http://Practitioner/123456","resource":{"resourceType":"Practitioner","id":"practitioner-123456","identifier":[{"system":"http://hl7.org/fhir/sid/us-npi","value":"123456"}],"name":[{"family":"Evil","prefix":["Dr"]}]}}]},"request":{"method":"PUT","url":"Bundle/DENOMPassDxEQAfibOrFlutterStartLTEncEndMADiE"}}]}